maintenance future class version sign church farmer chocolate volume reputation description map income software cause career chest extent period obligation depression difficulty philosophy role decision consequence inspection war contract cigarette bread fact soup movie subject drawing salad improvement standard nothing feature speaker tool result day instance selection action property measurement coast wife price theory account marketing unit sister investment temperature resolution photo permission patience beer value assumption complaint woman child economy meaning competition driver sport rate frame product average fat exercise cousin context bank wood credit style technology population year presence object job world rock hope scene focus example example power power focus scene hope rock world job object presence year population technology style credit wood bank context cousin exercise fat average product frame rate sport driver competition meaning economy child woman complaint assumption value beer patience permission photo resolution temperature investment sister unit marketing account theory price wife coast measurement property action selection instance day result tool speaker feature nothing standard improvement salad drawing subject movie soup fact bread cigarette contract war inspection consequence decision role philosophy difficulty depression obligation period extent chest career cause software income map description reputation volume chocolate farmer church sign version class future maintenance
50
philosophy philosophy
object object
competition competition
war war
style style
church church
wife wife
sign sign
complaint complaint
sister sister
cause cause
economy economy
contract contract
price price
rate rate
income income
role role
driver driver
career career
inspection inspection
average average
focus focus
action action
reputation reputation
account account
movie movie
description description
day day
depression depression
chest chest
beer beer
salad salad
photo photo
difficulty difficulty
context context
maintenance maintenance
population population
version version
example example
resolution resolution
rock rock
marketing marketing
future future
feature feature
obligation obligation
bread bread
volume volume
property property
selection selection
woman woman
